Folder: XAFS2023/data/pca

Note: README.md
# XAFS2023
Short Course on XAFS


[PKR: Google Drive Folder](https://drive.google.com/drive/u/1/folders/1cvrEAqEUza7zB9Dw9aWN0d4X-x45wwH8)
[Shared: Google Drive]()

File: marked.nor
# XDI/1.0 Demeter/0.9.26
# Demeter.output_filetype: multicolumn normalized mu(E)
# Element.symbol: Cu
# Element.edge: K
# Column.1: energy eV
# Column.2: cufoil_abs
# Column.3: cu2o_abs
# Column.4: cuo_abs
#------------------------
#  energy  cufoil_abs  cu2o_abs  cuo_abs
  8770.2       0.00118781  -0.00496239   0.0117661
  8800.21       0.000587828  -0.00138438   0.0107896
  8830.21       0.000331988  -0.00100201   0.00116875
  8860.21       0.000315056  -0.00145095  -0.00158079
  8890.2      -0.000636213   0.00177485  -0.000178107
  8920.21       0.000222304  -0.000212993   0.00204086
  8950.2       0.00392784   0.000136416   0.0100614
  8951.73       0.00451383   0.000327543   0.0112235
  8953.22       0.00506319   5.18358e-05   0.0124134
  8954.71       0.00547448   0.00085731   0.0136985
  8956.21       0.00595563   0.00135051   0.0147058
  8957.7       0.00652942   0.00202196   0.0161604
  8959.23       0.00729668   0.0023888   0.0174988
  8960.72       0.00812796   0.00315165   0.0187744
  8962.22       0.0091078   0.00415297   0.0205416
  8963.71       0.0102142   0.00541067   0.0225012
  8965.21       0.0116737   0.00691919   0.0247083
  8966.71       0.0135745   0.00890049   0.0276551
  8968.21       0.0158413   0.0111449   0.0315301
  8969.71       0.0192782   0.0144315   0.0354689
  8971.2       0.024741   0.0192545   0.0407098
  8972.7       0.0333029   0.0260644   0.0476587
  8974.2       0.0552733   0.0404629   0.0634817
  8975.71       0.119494       0.065861   0.0866645
  8977.21       0.375538       0.195317       0.104132
  8978.71       0.487165       0.519682       0.154914
  8980.21       0.461207       0.545327       0.258121
  8981.72       0.474468       0.465614       0.488984
  8983.22       0.540409       0.51641       0.6118
  8984.72       0.600792       0.615221       0.623316
  8986.2       0.684455       0.698269       0.691716
  8987.7       0.820183       0.806887       0.820448
  8989.21       0.933822       0.936066       0.969838
  8990.72        1.02057        1.06757        1.04938
  8992.22        1.01664        1.11464        1.10375
  8993.7       0.975028        1.13079        1.15325
  8995.21       0.93696        1.07786        1.19519
  8996.72       0.932455        1.01525        1.17904
  8998.2       0.976264       0.957127        1.14655
  8999.71        1.03187       0.927366        1.09366
  9001.22        1.04498       0.92239        1.05001
  9002.7        1.00588       0.938433        1.0187
  9004.21       0.96446       0.955972       0.998508
  9005.72       0.933566       0.977982       0.989978
  9007.2       0.911208       0.998097       0.990148
  9008.72       0.894706        1.00987       0.996313
  9010.2       0.895948        1.00618       0.99716
  9016.2       0.964874       0.949454       0.974559
  9022.21        1.05133       0.894775       0.917306
  9028.2       0.997728       0.887795       0.92103
  9034.22       0.943994       0.9283       0.974932
  9040.2       0.96228       0.977912        1.02363
  9046.21       0.969687        1.00393        1.04968
  9052.21       0.984505       0.987255        1.04513
  9058.21        1.01467       0.986205        1.02557
  9064.22        1.03985       0.987699        1.01124
  9070.2        1.06835        1.00319        1.00147
  9076.2        1.03443        1.01306       0.993433
  9082.21       0.991201        1.01639       0.992191
  9088.22       0.972037        1.00226       0.987984
  9094.21       0.938143       0.975399       0.987863
  9100.22       0.941196       0.957997       0.986425
  9106.22       0.980258       0.958331       0.983973
  9112.21        1.00376       0.973683       0.988112
  9118.21        1.00702       0.986206       0.987803
  9124.21        1.04826       0.991771       0.99591
  9130.2        1.08988       0.995468        1.00793
  9136.22        1.07757        1.00229        1.01194
  9142.22        1.04553        1.00848        1.01056
  9148.2       0.991374        1.00484        1.00856
  9154.22       0.940212       0.998974        1.00855
  9160.21       0.930643       0.995883        1.00136
  9166.21       0.971807       0.99702       0.995756
  9172.23        1.00796       0.999628       0.987971
  9178.22        1.01457        1.002       0.988385
  9184.21        1.01007        1.00398       0.994043
  9190.22        1.00897        1.00457       0.997721
  9196.21        1.00417        1.00379       0.995772
  9202.2        1.02518        1.00174       0.993261
  9208.2        1.0474       0.999085       0.99321
  9214.21        1.04698       0.996068       0.993043
  9220.2        1.0323       0.993681       0.998938
  9226.22        1.00696       0.993697        1.0023
  9232.2       0.981831       0.994453        1.00142
  9238.21       0.972051       0.995487       0.999952
  9244.2       0.97703       0.997581        1.00006
  9250.2       0.981186       0.998663        1.00193
  9256.2       0.985702       0.999972        1.00432
  9262.22       0.991941        1.00098        1.0045
  9268.21        1.00074        1.00209        1.00338
  9274.21        1.00779        1.00255        1.00033
  9280.22        1.01234        1.00196       0.998613
  9286.21        1.01631        1.00148       0.999035
  9292.2        1.01971        1.00113       0.999525
  9298.2        1.01995        1.00094       0.99946
  9304.22        1.01376        1.00081       0.999492
  9310.2        1.00423        1.00047       0.997825
  9316.2       0.996093        1.0004       0.996002
  9322.2       0.993014        1.00031       0.996131
  9328.22       0.99302        1.00002       0.997204
  9334.21       0.989921        1.00011       0.998341
  9340.2       0.983094        1.00008       0.998002
  9346.21       0.982675        1.00007       0.997644
  9352.23       0.986077        1.00006       0.997648
  9358.22       0.988461       0.999741       0.997436
  9364.22       0.991795       0.999752       0.999003
  9370.22       0.995559       0.998573        1.00025
  9376.21       0.998749       0.99881        1.00139
  9382.2        1.0019       0.998835        1.00326
  9388.2        1.0043       0.9982        1.00304
  9394.21        1.006       0.998489        1.00353
  9400.22        1.00614       0.998065        1.00269
  9406.22        1.00425       0.998876        1.00303
  9412.22        1.00013       0.99878        1.00308
  9418.23       0.997397       0.998552        1.00177
  9424.21       0.996419       0.99904        1.00118
  9430.21       0.996145       0.999728        1.00044
  9436.21       0.996152        1.00042       0.999474
  9442.22       0.994676        1.0007       0.999534
  9448.2       0.992992        1.00108       0.99931
  9454.2       0.991008        1.00125       0.999381
  9460.2       0.991183        1.00141       0.999625
  9466.21       0.991004        1.00119        1.00006
  9472.23       0.991199        1.00102        1.00127
  9478.22       0.992217        1.00082        1.00191
  9484.22       0.993758        1.00075        1.00165
  9490.2       0.996098        1.0008        1.00145
  9496.22       0.998216        1.00069        1.00087
  9502.21        1.00003        1.00095        1.00061
  9508.21        1.00101        1.00097        1.00019
  9514.22        1.00066        1.00137        1.00086
  9520.21       0.99943        1.00158       0.999431
  9526.2       0.997452        1.00183       0.998968
  9532.2       0.996052        1.00194       0.998432
  9538.21       0.995918        1.00202       0.999215
  9544.2       0.995648        1.00201        1.00019
  9550.22       0.995794        1.00232        1.00061
  9556.23       0.996503        1.00193        1.00112
  9562.2       0.997        1.00132        1.00131
  9568.22       0.99725        1.00126        1.00177
  9574.21       0.99786        1.00086        1.00142
  9580.21       0.998169        1.00042        1.00211
  9586.22       0.99954       0.998443        1.00273
  9592.2        1.001       0.997175        1.00189
  9598.22        1.00137       0.99813        1.00182
  9604.22        1.00338       0.996767        1.00091
  9610.23        1.00451       0.996166        1.0008
  9616.21        1.00498       0.99658        1.00052
  9622.2        1.0053       0.997139        1.00042
  9628.2        1.00591       0.997591       0.999779
  9634.2        1.00593       0.998308       0.999041
  9640.21        1.00586       0.998839       0.998598
  9646.2        1.00457        1.00011       0.997794
  9652.2        1.00408        1.00083       0.997657
  9658.2        1.00223        1.00244       0.997167
  9664.21        1.00307        1.00229       0.997124
  9670.2        1.00341        1.00236       0.996298
  9676.22        1.0024        1.0031       0.995456
  9682.23        1.00236        1.00349       0.996133
  9688.2        1.00333        1.00308       0.995583
  9694.22        1.00408        1.00326       0.99491
  9700.21        1.0042        1.00341       0.993851
  9706.21        1.00535        1.00365       0.995066
  9712.22        1.00506        1.00403       0.995752
  9718.2        1.00535        1.00456       0.999685
  9724.22        1.00573        1.00505        1.00248
  9730.22        1.00576        1.0056        1.00284
  9736.22        1.00651        1.0059        1.00498
  9742.2        1.00695        1.00631        1.00413
  9748.22        1.0071        1.00652        1.00363
  9754.21        1.00805        1.0069        1.00467
  9760.21        1.00854        1.00721        1.00532
  9766.22        1.00884        1.00732        1.00458
  9770.22        1.0091        1.00756        1.00431

File: normalized_data.nor
# XDI/1.0 Demeter/0.9.26
# Demeter.output_filetype: multicolumn normalized mu(E)
# Element.symbol: Ti
# Element.edge: K
# Column.1: energy eV
# Column.2: #2-1%-merge
# Column.3: #3-8%-merge
# Column.4: #4-19%-merge
# Column.5: #5-28%-merge
# Column.6: REF.published_on_AFM-38%-merge
# Column.7: #10-57%-merge
# Column.8: #6-65%-merge
# Column.9: #7-74%-merge
# Column.10: #9-84%-merge
# Column.11: #8-88%-merge
#------------------------
energy  #2-1%-merge  #3-8%-merge  #4-19%-merge  #5-28%-merge  REF.published_on_AFM-38%-merge  #10-57%-merge  #6-65%-merge  #7-74%-merge  #9-84%-merge  #8-88%-merge
  4899.99      -0.296176      -0.0247985  -0.0109047  -0.000656199   0.00145515   0.0012384   0.000856771   0.00120721   0.000951582   0.00184038
  4914       0.0108912  -0.000213353  -0.000457969   7.24928e-05  -4.3549e-05   8.08717e-05   0.000143041   3.37079e-05   0.000148593  -3.3614e-05
  4927.99       0.000481381  -0.00221058  -0.000567945  -0.000587564  -0.000775942  -0.000717257  -0.000681296  -0.00103506  -0.000500104  -0.00084262
  4941.99      -0.00280451   0.000777641   0.000245992   8.40682e-06  -5.31155e-05  -0.000251807   8.00424e-05  -0.000205335  -0.000113529  -2.30122e-05
  4952.99       0.00139732   0.00688117   0.00729669   0.00665536   0.00574187   0.00483422   0.00590759   0.00570602   0.00631696   0.00739762
  4956.5       0.0184611   0.031278   0.0327888   0.0276941   0.0277412   0.0242262   0.025338   0.0303313   0.0275318   0.0301821
  4960       0.23907       0.225047       0.247715       0.221558       0.236624       0.236038       0.237023       0.240541       0.240402       0.276493
  4963.49       0.141152       0.160603       0.170338       0.143611       0.160273       0.144134       0.144731       0.151131       0.148279       0.172455
  4967       0.266316       0.273173       0.295587       0.255778       0.259443       0.249399       0.248386       0.273854       0.251627       0.289873
  4970.5       0.544671       0.603426       0.633351       0.572529       0.593055       0.589195       0.585623       0.609538       0.58942       0.633846
  4974        1.07218        1.07506        1.04809        1.05608        1.02886       0.98393        1.0101       0.992708       0.97317       0.979694
  4977.51        1.09505        1.11841        1.11413        1.1361        1.12962        1.14771        1.17051        1.16422        1.15799        1.12692
  4980.99        1.11533        1.12309        1.11975        1.14533        1.09563        1.14066        1.15106        1.13158        1.13802        1.12173
  4984.5        1.17885        1.18699        1.1504        1.1785        1.12625        1.1321        1.13343        1.11927        1.11257        1.09163
  4988        1.18291        1.19101        1.15562        1.18925        1.17028        1.15219        1.15495        1.13962        1.13908        1.11296
  4991.5        1.17017        1.16224        1.14024        1.18391        1.15591        1.1556        1.15357        1.13982        1.13499        1.11079
  4995        1.11832        1.11393        1.09439        1.10671        1.10785        1.09802        1.10695        1.08696        1.08572        1.06903
  4998.5        1.06066        1.04891        1.04362        1.04289        1.04536        1.03563        1.0364        1.03928        1.02927        1.0223
  5001.99       0.985932       0.982923       0.98192       0.971542       0.971559       0.968642       0.971488       0.974578       0.967953       0.97586
  5005.51       0.943746       0.949233       0.949302       0.933516       0.935769       0.934315       0.933095       0.941841       0.93652       0.949207
  5009.01       0.936635       0.931568       0.938238       0.937114       0.928184       0.923741       0.934154       0.935774       0.930346       0.95001
  5012.51       0.905526       0.914125       0.918575       0.917141       0.911742       0.906119       0.913168       0.919772       0.914941       0.933356
  5015.99       0.912326       0.90902       0.916071       0.898697       0.909716       0.910356       0.913376       0.916843       0.91216       0.926946
  5019.5       0.906909       0.912925       0.919823       0.910755       0.919689       0.91869       0.915742       0.922221       0.920057       0.932969
  5026       0.923844       0.934811       0.942431       0.930878       0.938283       0.947719       0.947069       0.946746       0.951392       0.954617
  5033       0.954202       0.970361       0.975117       0.965498       0.974102       0.971303       0.980983       0.975961       0.983716       0.984825
  5040        1.00295       0.999209       0.999706        1.01356       0.994051        1.00025        1.00102       0.998911        1.00331       0.998464
  5047        1.03273        1.02847        1.02306        1.02601        1.019        1.02773        1.02079        1.02117        1.01732        1.01304
  5054        1.04811        1.03861        1.03524        1.04713        1.03352        1.03578        1.03673        1.03042        1.03207        1.02827
  5061.01        1.0414        1.03911        1.03213        1.03444        1.04192        1.03244        1.03728        1.0341        1.02675        1.02198
  5068        1.02392        1.01736        1.01518        1.01746        1.01975        1.02331        1.02023        1.01821        1.02312        1.01613
  5075        1.00721        1.00637        1.00503        1.00939        1.00813        1.00395       0.998876        1.00407        1.00923        1.00958
  5081.99       0.997403       0.994935       0.992746       0.99114       0.98637       0.991474       0.991832       0.993742       0.994725       0.998297
  5089.01       0.978576       0.984548       0.985298       0.984987       0.988588       0.986161       0.979928       0.993055       0.988074       0.985491
  5096.01       0.984808       0.9815       0.983624       0.991031       0.981581       0.986174       0.979943       0.979114       0.982823       0.981163
  5103       0.991034       0.982565       0.986824       0.975692       0.98865       0.992449       0.978299       0.985068       0.980573       0.981836
  5109.99       0.979877       0.983213       0.985987       0.977768       0.981399       0.993745       0.986214       0.988817       0.987336       0.99505
  5117       0.994348       0.987333       0.993402       0.987691       0.996142       0.9932       0.993161       0.996523        1.00003       0.996105
  5128        1.0007        1.0022        1.00138       0.999556       0.998727        1.00313        1.00058        1.00577        1.00806        1.00451
  5142        1.00975        1.01319        1.00818       0.990153        1.01044        1.00994        1.00997       0.999769        1.0052        1.00181
  5156.01        1.00886        1.01021        1.00687        1.00717        1.00114       0.998257        1.00303        1.00612        1.00216       0.998324
  5170       0.99928        1.00316        1.00211       0.994149        1.00079       0.995739        1.00016        1.00457       0.9963       0.999087
  5184        1.0167       0.99983       0.999746       0.992168       0.998231       0.995132        1.00661       0.995408       0.996623       0.996364
  5197.99        1.0045        1.00118       0.997769        1.00229        1.00015       0.995095        1.00139       0.996032       0.992904        1.00072
  5218.07       0.992171       0.995604       0.996604       0.990335       0.992878       0.998861       0.997666       0.998468       0.99235       0.997623
  5239.16       0.998049       0.998249        1.00068       0.996793        1.00034        1.00392        1.00131       0.996346       0.999187       0.997766
  5260.24       0.992017       0.99826        1.00169        1.00472        1.00607       0.997614        1.00483       0.998148        1.0071        1.00334
  5281.32        1.00598        1.00117        1.00329       0.997982        1.0061        1.01042       0.998409        1.00379        1.00807        1.00655
  5302.41       0.997642        1.00392        1.00316        1.00387        1.00244        1.00526       0.993501        1.00437       0.997043       0.999822
  5323.49        1.00945        1.00386        1.00085       0.978914        1.00381        1.00845       0.998601        1.00268       0.994587       0.999637
  5344.57       0.994669       0.9966        1.00094        1.00242       0.995617        1.0073        1.00104        1.0024       0.997109        1.00331
  5365.66        1.00767       0.99982       0.996455       0.992518        1.00322       0.999982       0.994305       0.999925       0.998892       0.992845
  5386.75        1.00956       0.998636       0.999024       0.997425       0.996296        1.00097       0.996215        1.00622        1.00529       0.999129
  5407.83        1.01278       0.997322       0.996971       0.996521       0.990182       0.996623       0.997685        1.00314        1.00135       0.99556
  5428.92       0.996603       0.996329       0.996265       0.988669       0.992528        1.00235        1.00037        1.00598        1.00141       0.989852
  5450        1.01682       0.995418       0.993459       0.996245       0.999533       0.995586       0.995171       0.99432       0.991227       0.995222